thisN,thisTrialN,thisRepN,expBlk.thisRepN,expBlk.thisTrialN,expBlk.thisN,expBlk.thisIndex,trials.thisRepN,trials.thisTrialN,trials.thisN,trials.thisIndex,thisRow.t,notes,loadExpVar.started,loadExpVar.stopped,blockInit.started,blockInit.stopped,trlInit.started,trlInit.stopped,fixationCircle.started,fixationCircle.stopped,stim.started,stim.stopped,preCueRest.started,preCueRest.stopped,retrocue.started,retrocue.stopped,delayCode_2.started,delayCode_2.stopped,participant,session,date,expName,psychopyVersion,frameRate,expStart,
,,,,,,,,,,,,,0.13180609999835724,0.13227009999900474,,,,,,,,,,,,,,,307542,001,2025-05-05_17h52.13.711,KeoghRevisedRetrocueTask,2024.2.4,59.93119898338649,2025-05-05 17h52.24.971511 -0700,
0,0,0,0,0,0,0,0,0,0,0,0.15049739999813028,,,,0.1326002999994671,0.1328904000001785,0.13345159999880707,0.1337174000000232,0.15202879999924335,0.1524647999976878,1.4447322999985772,1.445259399999486,1.46674019999773,1.945853299999726,1.96807809999882,2.446491499998956,2.468619799998123,2.4690550999985135,307542,001,2025-05-05_17h52.13.711,KeoghRevisedRetrocueTask,2024.2.4,59.93119898338649,2025-05-05 17h52.24.971511 -0700,
1,0,1,0,0,0,0,1,0,1,0,2.4820426999976917,,,,,,2.469260999998369,2.4694415999983903,2.483614299999317,2.4840735999969183,3.3599797999995644,3.360616099998879,3.367079699997703,3.8612938999976905,3.8850606999985757,4.362108699999226,4.385451699999976,4.385926899998594,307542,001,2025-05-05_17h52.13.711,KeoghRevisedRetrocueTask,2024.2.4,59.93119898338649,2025-05-05 17h52.24.971511 -0700,
2,0,2,0,0,0,0,2,0,2,0,4.3985640999999305,,,,,,4.386153100000229,4.386384199999156,4.40035319999879,4.400900199998432,5.023642099997232,5.024171699998988,5.036940999998478,5.524707900000067,5.534165499997471,6.025397699999303,6.035131299999193,6.035537399999157,307542,001,2025-05-05_17h52.13.711,KeoghRevisedRetrocueTask,2024.2.4,59.93119898338649,2025-05-05 17h52.24.971511 -0700,
3,0,3,0,0,0,0,3,0,3,0,6.048366699997132,,,,,,6.035747599999013,6.03593379999802,6.049892099999852,6.050472899998567,6.691574199998286,6.691985899997235,6.699720499997056,7.19257849999849,7.199821499998507,7.693287699999928,7.700241099999403,7.700574099999358,307542,001,2025-05-05_17h52.13.711,KeoghRevisedRetrocueTask,2024.2.4,59.93119898338649,2025-05-05 17h52.24.971511 -0700,
4,0,4,0,0,0,0,4,0,4,0,7.716237699998601,,,,,,7.70078089999879,7.7009843999985605,7.717739299998357,7.718162899996969,8.340403499998502,8.340972999998485,8.349418399997376,8.84164199999941,8.849866399999883,9.34220970000024,9.350980399998662,9.351301699996839,307542,001,2025-05-05_17h52.13.711,KeoghRevisedRetrocueTask,2024.2.4,59.93119898338649,2025-05-05 17h52.24.971511 -0700,
5,0,5,0,0,0,0,5,0,5,0,9.365261899998586,,,,,,9.351509599997371,9.35173070000019,9.366819399998349,9.367224399997212,9.958227499999339,9.958710499999142,9.966075199998158,10.45934169999964,10.466211899998598,10.960009399997944,10.985975799998414,10.98648879999746,307542,001,2025-05-05_17h52.13.711,KeoghRevisedRetrocueTask,2024.2.4,59.93119898338649,2025-05-05 17h52.24.971511 -0700,
6,0,6,0,0,0,0,6,0,6,0,10.999228699998639,,,,,,10.98670239999774,10.986929099999543,11.000880699997651,11.001357299999654,11.590150999996695,11.590817099997366,11.599362799999653,12.091436199996679,12.099375499998132,12.592112099999213,12.60057819999929,12.600874299998395,307542,001,2025-05-05_17h52.13.711,KeoghRevisedRetrocueTask,2024.2.4,59.93119898338649,2025-05-05 17h52.24.971511 -0700,
7,0,7,0,0,0,0,7,0,7,0,12.614938699996856,,,,,,12.601084799996897,12.601254699999117,12.616845499996998,12.617324499999086,13.224377699996694,13.224801199998183,13.232251599998563,13.725455699997838,13.732563800000207,14.226047999996808,14.23444599999857,14.234819599998445,307542,001,2025-05-05_17h52.13.711,KeoghRevisedRetrocueTask,2024.2.4,59.93119898338649,2025-05-05 17h52.24.971511 -0700,
8,0,8,0,0,0,0,8,0,8,0,14.248230199998943,,,,,,14.235056599998643,14.235305399997742,14.249732799999038,14.25014629999714,14.857480199996644,14.857901100000163,14.866478500000085,15.358584300000075,15.366068599996652,15.859152699998958,15.866800099996908,15.867102000000159,307542,001,2025-05-05_17h52.13.711,KeoghRevisedRetrocueTask,2024.2.4,59.93119898338649,2025-05-05 17h52.24.971511 -0700,
9,0,9,0,0,0,0,9,0,9,0,15.88113489999887,,,,,,15.867302200000267,15.86752179999894,15.882558999997855,15.882970699996804,16.474401299998135,16.474805999998352,16.49190549999912,16.975380299998506,16.981963799997175,17.47604709999723,17.483249999997497,17.483538299999054,307542,001,2025-05-05_17h52.13.711,KeoghRevisedRetrocueTask,2024.2.4,59.93119898338649,2025-05-05 17h52.24.971511 -0700,
10,0,10,0,0,0,0,10,0,10,0,17.497817799998302,,,,,,17.483730500000092,17.48389379999935,17.499737799997092,17.500130699998408,18.08952069999941,18.089921999999206,18.098980499999016,18.59047339999961,18.599000599999272,19.091085799998837,19.10010659999898,19.100525499998184,307542,001,2025-05-05_17h52.13.711,KeoghRevisedRetrocueTask,2024.2.4,59.93119898338649,2025-05-05 17h52.24.971511 -0700,
11,0,11,0,0,0,0,11,0,11,0,19.11493949999931,,,,,,19.10073519999787,19.10100329999841,19.11667729999681,19.117161899997882,19.725773999998637,19.726194299997587,19.732003899996926,20.226840999999695,20.250261999997747,20.727587699999276,20.75139179999678,20.75189109999701,307542,001,2025-05-05_17h52.13.711,KeoghRevisedRetrocueTask,2024.2.4,59.93119898338649,2025-05-05 17h52.24.971511 -0700,
0,0,0,0,0,0,0,,,,,,,,,,,,,,,,,,,,,,,307542,001,2025-05-05_17h52.13.711,KeoghRevisedRetrocueTask,2024.2.4,59.93119898338649,2025-05-05 17h52.24.971511 -0700,
0,0,0,1,0,1,0,0,0,0,0,20.76492149999831,,,,20.752794500000164,20.75301059999765,20.75333259999752,20.753529899997375,20.766581299998506,20.76702159999695,21.372508899999957,21.37305529999867,21.382914199999504,21.87372349999714,21.881679799997073,22.37444019999748,22.38304589999825,22.38335989999905,307542,001,2025-05-05_17h52.13.711,KeoghRevisedRetrocueTask,2024.2.4,59.93119898338649,2025-05-05 17h52.24.971511 -0700,
1,0,1,1,0,1,0,1,0,1,0,22.398469799998566,,,,,,22.3835889999973,22.383824799999275,22.400103399999352,22.400557599998137,22.991075699999783,22.99146699999983,22.999053199997434,23.492056999999477,23.517661099998804,23.992756499999814,23.99968959999751,23.99996789999932,307542,001,2025-05-05_17h52.13.711,KeoghRevisedRetrocueTask,2024.2.4,59.93119898338649,2025-05-05 17h52.24.971511 -0700,
2,0,2,1,0,1,0,2,0,2,0,24.013990799998282,,,,,,24.0001889999985,24.00041179999971,24.015905699998257,24.01631129999805,24.621401099997456,24.621886699998868,24.631650699997408,25.122536599999876,25.13360459999967,25.623315699998784,25.632932799999253,25.63324139999895,307542,001,2025-05-05_17h52.13.711,KeoghRevisedRetrocueTask,2024.2.4,59.93119898338649,2025-05-05 17h52.24.971511 -0700,
3,0,3,1,0,1,0,3,0,3,0,25.647743999998056,,,,,,25.633458899999823,25.63366369999858,25.649513999996998,25.650169599997753,26.240187899999,26.24067229999855,26.248390499997186,26.74149269999907,26.748548599996866,27.24223389999679,27.249062699997012,27.24939919999815,307542,001,2025-05-05_17h52.13.711,KeoghRevisedRetrocueTask,2024.2.4,59.93119898338649,2025-05-05 17h52.24.971511 -0700,
4,0,4,1,0,1,0,4,0,4,0,27.26372529999935,,,,,,27.249607599998853,27.24986629999694,27.265280899999198,27.265698399998655,27.838359099998343,27.838795099996787,27.848467899999378,28.339346299999306,28.349391599997034,28.840034699998796,28.84908379999979,28.84943729999941,307542,001,2025-05-05_17h52.13.711,KeoghRevisedRetrocueTask,2024.2.4,59.93119898338649,2025-05-05 17h52.24.971511 -0700,
5,0,5,1,0,1,0,5,0,5,0,28.863385799999378,,,,,,28.849646099999518,28.849886199997854,28.86487219999981,28.86530489999859,29.456823900000018,29.457250899999053,29.464657499996974,29.95786339999904,29.965356099997734,30.458495699997002,30.46637539999938,30.46672629999739,307542,001,2025-05-05_17h52.13.711,KeoghRevisedRetrocueTask,2024.2.4,59.93119898338649,2025-05-05 17h52.24.971511 -0700,
6,0,6,1,0,1,0,6,0,6,0,30.480431500000122,,,,,,30.4669458999997,30.467164699999557,30.48195510000005,30.482349499998236,31.10477009999886,31.10518939999747,31.11490579999736,31.605895499997132,31.614974099997198,32.106544099999155,32.11587619999773,32.11615499999971,307542,001,2025-05-05_17h52.13.711,KeoghRevisedRetrocueTask,2024.2.4,59.93119898338649,2025-05-05 17h52.24.971511 -0700,
7,0,7,1,0,1,0,7,0,7,0,32.13037389999954,,,,,,32.1163736999988,32.11663199999748,32.131951199997275,32.1323541999991,32.73953299999994,32.739968599998974,32.74841039999956,33.240504299999884,33.24859939999806,33.74112109999987,33.74917199999982,33.749576199999865,307542,001,2025-05-05_17h52.13.711,KeoghRevisedRetrocueTask,2024.2.4,59.93119898338649,2025-05-05 17h52.24.971511 -0700,
8,0,8,1,0,1,0,8,0,8,0,33.76329999999871,,,,,,33.749876899997616,33.75018849999833,33.76493069999924,33.76521859999775,34.37261469999794,34.373131499996816,34.381792099997256,34.87377619999825,34.881754199999705,35.37436319999688,35.38251449999734,35.38280759999907,307542,001,2025-05-05_17h52.13.711,KeoghRevisedRetrocueTask,2024.2.4,59.93119898338649,2025-05-05 17h52.24.971511 -0700,
9,0,9,1,0,1,0,9,0,9,0,35.39650939999774,,,,,,35.38301019999926,35.38318399999844,35.39784249999866,35.398157799998444,35.9903278999991,35.99076149999746,35.998125599999184,36.49141889999737,36.49763669999811,36.9920753999977,37.0170509999989,37.01751929999955,307542,001,2025-05-05_17h52.13.711,KeoghRevisedRetrocueTask,2024.2.4,59.93119898338649,2025-05-05 17h52.24.971511 -0700,
10,0,10,1,0,1,0,10,0,10,0,37.03000089999841,,,,,,37.0178285999973,37.01816249999683,37.031701500000054,37.03222789999927,37.621246199996676,37.621774899998854,37.631013299996994,38.12245279999843,38.13142339999831,38.62320929999987,38.631878499996674,38.63225160000002,307542,001,2025-05-05_17h52.13.711,KeoghRevisedRetrocueTask,2024.2.4,59.93119898338649,2025-05-05 17h52.24.971511 -0700,
11,0,11,1,0,1,0,11,0,11,0,38.64691649999804,,,,,,38.63245839999945,38.63272519999737,38.64889419999963,38.64929149999807,39.274417299999186,39.274869599998055,39.28038489999744,39.77541359999668,39.79819739999948,40.27599129999726,40.300372399997286,40.30080420000013,307542,001,2025-05-05_17h52.13.711,KeoghRevisedRetrocueTask,2024.2.4,59.93119898338649,2025-05-05 17h52.24.971511 -0700,
1,0,1,1,0,1,0,,,,,,,,,,,,,,,,,,,,,,,307542,001,2025-05-05_17h52.13.711,KeoghRevisedRetrocueTask,2024.2.4,59.93119898338649,2025-05-05 17h52.24.971511 -0700,
0,0,0,2,0,2,0,0,0,0,0,40.313575399999536,,,,40.30170559999897,40.301943200000096,40.30221719999827,40.30248099999881,40.31509939999887,40.315496399998665,40.887490799999796,40.88814899999852,40.89770700000008,41.38885139999911,41.39786759999697,41.889582699997845,41.89928569999756,41.89961869999752,307542,001,2025-05-05_17h52.13.711,KeoghRevisedRetrocueTask,2024.2.4,59.93119898338649,2025-05-05 17h52.24.971511 -0700,
1,0,1,2,0,2,0,1,0,1,0,41.912721099997725,,,,,,41.899833699997544,41.90002949999689,41.914629899998545,41.9150996999997,42.5052904999975,42.505774099998234,42.51429759999883,43.00635449999754,43.01419239999814,43.50699909999821,43.51607769999828,43.516465400000016,307542,001,2025-05-05_17h52.13.711,KeoghRevisedRetrocueTask,2024.2.4,59.93119898338649,2025-05-05 17h52.24.971511 -0700,
2,0,2,2,0,2,0,2,0,2,0,43.528997399997024,,,,,,43.51671559999886,43.51692399999956,43.530359399999725,43.53073469999799,44.1206953999972,44.12109149999742,44.130964299998595,44.621681999997236,44.63084339999841,45.122407799997745,45.13188569999693,45.132177199997386,307542,001,2025-05-05_17h52.13.711,KeoghRevisedRetrocueTask,2024.2.4,59.93119898338649,2025-05-05 17h52.24.971511 -0700,
3,0,3,2,0,2,0,3,0,3,0,45.147120800000266,,,,,,45.13238239999919,45.13257369999701,45.148657199999434,45.14911159999974,45.738000599998486,45.73857769999813,45.74736130000019,46.23918699999922,46.24736729999859,46.73988649999956,46.74816379999902,46.74846249999973,307542,001,2025-05-05_17h52.13.711,KeoghRevisedRetrocueTask,2024.2.4,59.93119898338649,2025-05-05 17h52.24.971511 -0700,
4,0,4,2,0,2,0,4,0,4,0,46.7624868999992,,,,,,46.748659099997894,46.748821499997575,46.76397249999718,46.764392599998246,47.35456439999689,47.35522479999781,47.36500159999923,47.855962999998155,47.86375699999917,48.356538,48.364923199998884,48.365270299997064,307542,001,2025-05-05_17h52.13.711,KeoghRevisedRetrocueTask,2024.2.4,59.93119898338649,2025-05-05 17h52.24.971511 -0700,
5,0,5,2,0,2,0,5,0,5,0,48.37904349999735,,,,,,48.3655050999987,48.366159099998185,48.38073529999747,48.38115649999963,48.97191269999894,48.972420299996884,48.97979109999869,49.47330399999919,49.480359999997745,49.974270499998966,49.99926619999678,49.99968420000005,307542,001,2025-05-05_17h52.13.711,KeoghRevisedRetrocueTask,2024.2.4,59.93119898338649,2025-05-05 17h52.24.971511 -0700,
6,0,6,2,0,2,0,6,0,6,0,50.01229299999977,,,,,,49.99989199999982,50.00008759999764,50.01418619999822,50.0146571999976,50.60278289999769,50.60317049999867,50.613559800000075,51.10384899999917,51.11648520000017,51.604738399997586,51.6218861999987,51.62225849999959,307542,001,2025-05-05_17h52.13.711,KeoghRevisedRetrocueTask,2024.2.4,59.93119898338649,2025-05-05 17h52.24.971511 -0700,
7,0,7,2,0,2,0,7,0,7,0,51.6283700999993,,,,,,51.62248989999716,51.62273209999694,51.62959239999691,51.62989369999923,52.20382599999721,52.20428809999794,52.213375199997245,52.704948599999625,52.7131773000001,53.20559499999945,53.214548099997046,53.214866899998015,307542,001,2025-05-05_17h52.13.711,KeoghRevisedRetrocueTask,2024.2.4,59.93119898338649,2025-05-05 17h52.24.971511 -0700,
8,0,8,2,0,2,0,8,0,8,0,53.22840249999717,,,,,,53.21506959999897,53.21532959999968,53.23018179999781,53.23047359999691,53.80299589999777,53.80357319999894,53.81368979999752,54.304253899998,54.314303199997084,54.80547569999908,54.81629549999707,54.81695909999689,307542,001,2025-05-05_17h52.13.711,KeoghRevisedRetrocueTask,2024.2.4,59.93119898338649,2025-05-05 17h52.24.971511 -0700,
9,0,9,2,0,2,0,9,0,9,0,54.83092519999991,,,,,,54.81727099999989,54.817627399999765,54.832970899999054,54.833722999999736,55.649179999996704,55.649914499997976,55.665080699996906,56.150820199996815,56.165806499997416,56.65187529999821,56.66620239999975,56.66691799999899,307542,001,2025-05-05_17h52.13.711,KeoghRevisedRetrocueTask,2024.2.4,59.93119898338649,2025-05-05 17h52.24.971511 -0700,
10,0,10,2,0,2,0,10,0,10,0,56.67982609999672,,,,,,56.667233999996824,56.66746919999787,56.682393899998715,56.68343409999943,57.35749559999749,57.35800190000009,57.38200129999677,57.85855519999677,57.88140129999738,58.359787999997934,58.382050499996694,58.38258239999777,307542,001,2025-05-05_17h52.13.711,KeoghRevisedRetrocueTask,2024.2.4,59.93119898338649,2025-05-05 17h52.24.971511 -0700,
11,0,11,2,0,2,0,11,0,11,0,58.39565549999679,,,,,,58.3828070999989,58.38303729999825,58.39718039999934,58.39758889999939,58.98683559999699,58.987229899998056,58.996985899997526,59.487852099999145,59.49636459999965,59.98846809999668,59.997258699997474,59.99754149999717,307542,001,2025-05-05_17h52.13.711,KeoghRevisedRetrocueTask,2024.2.4,59.93119898338649,2025-05-05 17h52.24.971511 -0700,
2,0,2,2,0,2,0,,,,,,,,,,,,,,,,,,,,,,,307542,001,2025-05-05_17h52.13.711,KeoghRevisedRetrocueTask,2024.2.4,59.93119898338649,2025-05-05 17h52.24.971511 -0700,
0,0,0,3,0,3,0,0,0,0,0,60.011595099997066,,,,59.99832029999743,59.99850460000016,59.998774499999854,59.99898039999971,60.013267799997266,60.0136829999974,60.60411359999853,60.60453199999756,60.61313109999901,61.10518830000001,61.11278019999736,61.60594839999976,61.61351659999855,61.61383249999926,307542,001,2025-05-05_17h52.13.711,KeoghRevisedRetrocueTask,2024.2.4,59.93119898338649,2025-05-05 17h52.24.971511 -0700,
1,0,1,,,,,1,0,1,0,61.628115499999694,,,,,,61.614043699999456,61.61437539999679,61.62955899999724,61.62999819999823,62.23614699999962,62.236626299996715,62.24599229999876,62.73729579999781,62.74601319999783,,,,,,,,,,,
